File: data/pol_curves/K2Mo6Te8_her_tafel_run1.txt
Ewe/V	<I>/mA
0.242982	0.000000000000000E+000
0.251588	0.000000000000000E+000
0.251916	5.62494e-05
0.250046	-0.00216105
0.246631	-0.00499156
0.243094	-0.007603
0.239623	-0.00910569
0.236295	-0.0104535
0.232985	-0.0118634
0.229678	-0.0131109
0.226332	-0.0142033
0.223001	-0.0152308
0.219581	-0.0162669
0.215938	-0.01705
0.212653	-0.0175835
0.209288	-0.0180007
0.206002	-0.0183434
0.202719	-0.0186096
0.199392	-0.0189045
0.196036	-0.0191095
0.19279	-0.0192582
0.189376	-0.0194208
0.185975	-0.0196528
0.182572	-0.0197835
0.179222	-0.0197623
0.175962	-0.0196599
0.172606	-0.019414
0.169314	-0.0190492
0.16599	-0.0186395
0.162658	-0.0181566
0.159329	-0.0176951
0.156106	-0.0171936
0.152823	-0.0166521
0.149394	-0.0161528
0.146081	-0.0157274
0.142756	-0.0153332
0.139365	-0.0148941
0.136054	-0.0143951
0.132702	-0.0139413
0.129333	-0.0134395
0.126033	-0.0129348
0.122612	-0.0124722
0.119292	-0.0119615
0.116109	-0.011392
0.112797	-0.0108336
0.109444	-0.0103325
0.10612	-0.0098365
0.102768	-0.00951947
0.0993975	-0.00914336
0.0961246	-0.00878525
0.0927964	-0.00849969
0.0894526	-0.00829982
0.0860937	-0.00813555
0.0827919	-0.00792266
0.0794742	-0.00772488
0.0761649	-0.00757299
0.0727622	-0.00746908
0.069456	-0.00744933
0.0660502	-0.00741628
0.062752	-0.00735796
0.0593789	-0.00718584
0.0561373	-0.00706028
0.0527658	-0.00694972
0.0495064	-0.00684487
0.0461506	-0.00668512
0.0428265	-0.00654146
0.0394641	-0.0064076
0.0361425	-0.00635482
0.0327957	-0.0062644
0.0294584	-0.00618591
0.0262114	-0.00613537
0.0228232	-0.00613388
0.0195324	-0.00621809
0.0161928	-0.00628277
0.0128484	-0.00637777
0.00954005	-0.0064868
0.0061871	-0.00653176
0.00283309	-0.00669184
-0.000502693	-0.00680139
-0.00389174	-0.00697721
-0.00734335	-0.00714876
-0.0106564	-0.00735807
-0.0139735	-0.00751848
-0.0172951	-0.00769497
-0.0206109	-0.00787669
-0.0239205	-0.00805126
-0.0272789	-0.00819236
-0.030616	-0.008293
-0.0338886	-0.00842858
-0.0372174	-0.00858894
-0.0405305	-0.00869799
-0.0438068	-0.00881905
-0.047126	-0.00899389
-0.0504329	-0.00915115
-0.0537819	-0.00933629
-0.057204	-0.00961039
-0.0606006	-0.00985193
-0.063877	-0.0101178
-0.0674032	-0.0105303
-0.0708818	-0.0101542
-0.0741962	-0.0105042
-0.0775162	-0.0107581
-0.0808694	-0.0110987
-0.0842188	-0.0114166
-0.0875709	-0.0116942
-0.0908453	-0.012077
-0.0941785	-0.0123596
-0.0974946	-0.0126563
-0.100838	-0.0129892
-0.104147	-0.0132996
-0.107451	-0.0136214
-0.110787	-0.0138984
-0.114141	-0.0142633
-0.11752	-0.0145784
-0.120783	-0.0148132
-0.124162	-0.014964
-0.127486	-0.0151061
-0.130851	-0.015402
-0.134167	-0.0157134
-0.137469	-0.0160234
-0.140854	-0.0163619
-0.144139	-0.0167361
-0.147479	-0.017113
-0.150753	-0.0174935
-0.154056	-0.0180012
-0.157433	-0.0185077
-0.160792	-0.0190331
-0.164169	-0.0196115
-0.167659	-0.0202653
-0.171076	-0.0206015
-0.17444	-0.0209656
-0.177734	-0.021374
-0.181011	-0.0218277
-0.184345	-0.02228
-0.187782	-0.022903
-0.191088	-0.0234247
-0.194386	-0.0239794
-0.197706	-0.0245809
-0.201012	-0.0254137
-0.204315	-0.0260423
-0.207619	-0.0267305
-0.211013	-0.0273936
-0.214386	-0.0280479
-0.217675	-0.0288304
-0.220991	-0.0296255
-0.224396	-0.0303815
-0.227772	-0.0313373
-0.231129	-0.032534
-0.234583	-0.0342861
-0.23818	-0.0348931
-0.241423	-0.0358689
-0.244752	-0.0369253
-0.248116	-0.0378798
-0.25136	-0.0388648
-0.25458	-0.0398792
-0.258117	-0.0409243
-0.261415	-0.0417587
-0.264691	-0.0430854
-0.26807	-0.0443936
-0.271405	-0.0457431
-0.274694	-0.0470872
-0.278046	-0.0485517
-0.281397	-0.0500261
-0.28472	-0.0513364
-0.287965	-0.052619
-0.29128	-0.0539497
-0.29467	-0.0553798
-0.298018	-0.0570508
-0.301365	-0.0587682
-0.304664	-0.0603995
-0.308005	-0.0620831
-0.311316	-0.064129
-0.314652	-0.0664298
-0.318032	-0.0687956
-0.321334	-0.0708198
-0.324706	-0.0729918
-0.328053	-0.0748072
-0.331346	-0.0766519
-0.334646	-0.0790043
-0.33801	-0.0810992
-0.341399	-0.0832259
-0.344668	-0.0853172
-0.347961	-0.0877462
-0.351353	-0.0904126
-0.354678	-0.0932899
-0.358056	-0.0962381
-0.361328	-0.0992735
-0.364631	-0.102234
-0.367929	-0.105095
-0.371322	-0.108575
-0.374633	-0.111811
-0.377982	-0.115247
-0.381353	-0.118949
-0.384618	-0.122567
-0.388011	-0.126485
-0.391348	-0.13107
-0.394597	-0.135811
-0.397974	-0.140496
-0.401296	-0.145182
-0.404604	-0.150338
-0.407952	-0.155947
-0.411323	-0.162351
-0.414696	-0.169108
-0.418002	-0.177031
-0.42128	-0.185092
-0.424554	-0.193323
-0.42793	-0.201864
-0.431245	-0.212033
-0.434611	-0.223202
-0.437928	-0.235124
-0.441272	-0.248115
-0.444572	-0.262561
-0.447896	-0.278566
-0.451245	-0.297617
-0.454605	-0.317554
-0.457894	-0.33872
-0.461249	-0.3654
-0.46456	-0.39206
-0.467928	-0.421847
-0.471252	-0.457297
-0.474621	-0.492561
-0.477939	-0.53634
-0.481268	-0.581897
-0.484502	-0.635271
-0.487873	-0.691748
-0.491199	-0.757205
-0.494545	-0.831767
-0.497892	-0.914814
-0.501185	-1.00647
-0.50452	-1.10493
-0.507843	-1.22121
-0.51121	-1.3455
-0.514495	-1.48297
-0.517838	-1.63408
-0.521188	-1.8022
-0.524485	-1.97517
-0.527829	-2.1642
-0.531108	-2.3733
-0.534476	-2.59966
-0.537776	-2.84398
-0.541188	-3.10461
-0.54445	-3.3789
-0.547792	-3.67228
-0.551121	-3.9773
-0.554456	-4.30165
-0.557819	-4.6472
-0.561152	-5.00528
-0.5645	-5.37209
-0.567813	-5.76231
-0.571138	-6.16404
-0.574401	-6.57591
-0.577807	-7.01073
-0.581121	-7.45113
-0.584435	-7.90569
-0.587753	-8.37068
-0.591102	-8.86738
-0.594415	-9.36888
-0.597739	-9.89014
-0.601128	-10.3979
-0.604447	-10.9258
-0.607768	-11.4825
-0.611108	-12.0548
-0.614419	-12.6249
-0.617728	-13.1957
-0.621102	-13.7784
-0.624413	-14.3782
-0.627807	-14.9997
-0.630977	-15.6434
-0.634446	-16.2833
-0.63774	-16.9119
-0.641073	-17.5499
-0.644463	-18.2234
-0.647821	-18.8949
-0.651058	-19.5796
-0.654487	-20.2388
-0.657695	-20.9146
-0.661149	-21.6104
-0.6643	-22.3056
-0.667664	-23.0236
-0.671034	-23.7354
-0.674328	-24.4318
-0.67768	-25.1372
-0.680984	-25.8873
-0.684406	-26.6227
-0.687678	-27.3495
-0.691191	-28.0861
-0.69436	-28.8171
-0.697714	-29.5509
-0.701066	-30.3182
-0.704374	-31.1019
-0.707713	-31.8441
-0.710934	-32.6183
-0.71438	-33.3873
-0.717708	-34.2294
-0.720953	-35.003
-0.724291	-35.764
-0.727694	-36.5324
-0.730918	-37.2843
-0.734365	-38.0796
-0.737763	-38.8639
-0.740972	-39.6247
-0.744325	-40.4356
-0.747655	-41.2244
-0.750995	-42.0511
-0.7543	-42.85
-0.757661	-43.6153
-0.760952	-44.4242
-0.764232	-45.2001
-0.767572	-45.9559
-0.770875	-46.7803
-0.77426	-47.5823
-0.77758	-48.3492
-0.780944	-49.1734
-0.784299	-49.9323
-0.787621	-50.7712
-0.790895	-51.6293
-0.794287	-52.3814
-0.797615	-53.2427
-0.800865	-54.0484
-0.804146	-54.9653
-0.807549	-55.7223
-0.810874	-56.4557
-0.814224	-57.2155
-0.817573	-57.9754
-0.820913	-58.8764
-0.82425	-59.7208
-0.827477	-60.6076
-0.830939	-61.5493
-0.834197	-62.454
-0.837559	-63.3275
-0.840858	-64.1887
-0.844211	-64.9284
-0.847551	-65.6423
-0.850909	-66.4522
-0.854231	-67.3066
-0.857534	-68.0993
-0.86084	-69.1396
-0.864239	-70.0505
-0.8676	-70.9083
-0.870882	-71.7563
-0.874165	-72.582
-0.877593	-73.5904
-0.880823	-74.5641
-0.884158	-75.338
-0.8875	-76.0974
-0.890805	-77.0042
-0.894202	-78.042
-0.897507	-79.1794
-0.899167	-79.6243
-0.899502	-79.7031